File: refinedstock/TGA
,0,3
2,2000-10-02 16:00:00,0.62
5,2000-10-02 21:00:00,0.6
8,2000-10-03 00:00:00,0.58
11,2000-10-03 05:00:00,0.88
14,2000-10-03 08:00:00,0.95
17,2000-10-03 13:00:00,0.82
20,2000-10-30 14:00:00,0.83
23,2000-10-30 17:00:00,0.85
26,2000-10-30 22:00:00,0.71
29,2000-10-31 01:00:00,0.7
32,2000-10-31 06:00:00,0.68
35,2000-10-31 11:00:00,0.6875
38,2000-10-31 15:00:00,0.66
41,2000-10-31 20:00:00,0.57
44,2000-11-01 01:00:00,0.48
47,2000-11-01 04:00:00,0.48
50,2000-11-01 09:00:00,0.42
53,2000-11-01 12:00:00,0.46
56,2000-11-01 17:00:00,0.44
59,2000-11-01 23:00:00,0.42
62,2000-11-02 02:00:00,0.41
65,2000-11-02 08:00:00,0.41
68,2000-11-02 13:00:00,0.375
71,2000-11-02 16:00:00,0.38
74,2000-11-02 22:00:00,0.39
77,2000-11-03 03:00:00,0.38
80,2000-11-03 06:00:00,0.0
83,2000-11-03 11:00:00,0.0
86,2000-11-03 16:00:00,0.4
89,2000-11-03 19:00:00,0.415
92,2000-11-04 00:00:00,0.4
95,2000-11-04 03:00:00,0.39
98,2000-11-04 09:00:00,0.38
101,2000-11-04 14:00:00,0.4
104,2000-11-04 17:00:00,0.42
107,2000-11-04 22:00:00,0.38
110,2000-11-05 03:00:00,0.38
113,2000-11-05 06:00:00,0.35
116,2000-11-05 11:00:00,0.295
119,2000-11-05 14:00:00,0.31
122,2000-11-05 19:00:00,0.25
125,2001-04-02 14:00:00,0.255
128,2001-04-02 17:00:00,0.25
131,2001-04-02 22:00:00,0.29
134,2001-04-03 04:00:00,0.33
137,2001-04-03 07:00:00,0.36
140,2001-04-03 12:00:00,0.34
143,2001-04-03 15:00:00,0.36
146,2001-04-03 20:00:00,0.32
149,2001-04-04 01:00:00,0.35
152,2001-04-04 04:00:00,0.35
155,2001-04-04 09:00:00,0.34
158,2001-04-04 12:00:00,0.34
161,2001-04-04 17:00:00,0.41
164,2001-04-04 23:00:00,0.37
167,2001-04-05 02:00:00,0.35
170,2001-04-05 07:00:00,0.345
173,2001-04-05 12:00:00,0.34
176,2001-04-05 15:00:00,0.33
179,2001-04-05 20:00:00,0.34
182,2001-04-05 23:00:00,0.31
185,2001-04-06 04:00:00,0.31
188,2001-04-06 09:00:00,0.31
191,2001-04-06 13:00:00,0.28
194,2001-04-06 18:00:00,0.0
197,2001-04-06 23:00:00,0.27
200,2001-04-07 02:00:00,0.27
203,2001-04-07 07:00:00,0.27
206,2001-04-07 10:00:00,0.26
209,2001-04-07 15:00:00,0.0
212,2001-04-07 20:00:00,0.285
215,2001-04-07 23:00:00,0.32
218,2001-04-08 04:00:00,0.28
221,2001-04-08 07:00:00,0.26
224,2001-04-08 12:00:00,0.27
227,2001-04-08 17:00:00,0.29
230,2001-04-08 20:00:00,0.0
233,2001-04-09 02:00:00,0.29
236,2001-04-09 07:00:00,0.24
239,2001-04-09 16:00:00,0.24
242,2001-04-09 21:00:00,0.19
245,2001-04-10 00:00:00,0.19
248,2001-04-10 05:00:00,0.0
251,2001-04-10 08:00:00,0.195
254,2001-04-10 13:00:00,0.195
257,2001-04-10 18:00:00,0.195
260,2001-04-10 21:00:00,0.18
263,2001-04-11 02:00:00,0.18
266,2001-04-11 05:00:00,0.2
269,2001-10-29 16:00:00,0.2
272,2001-10-29 21:00:00,0.24
275,2001-10-30 00:00:00,0.0
278,2001-10-30 05:00:00,0.24
281,2001-10-30 08:00:00,0.23
284,2001-10-30 13:00:00,0.23
287,2001-10-30 19:00:00,0.22
290,2001-10-30 22:00:00,0.3
293,2001-10-31 03:00:00,0.24
296,2001-10-31 08:00:00,0.0
299,2001-10-31 11:00:00,0.3
302,2001-10-31 16:00:00,0.29
305,2001-10-31 19:00:00,0.29
308,2001-11-01 01:00:00,0.29
311,2001-11-01 07:00:00,0.42
314,2001-11-01 12:00:00,0.47
317,2001-11-01 15:00:00,0.35
320,2001-11-01 20:00:00,0.4
323,2001-11-01 23:00:00,0.38
326,2001-11-02 05:00:00,0.35
329,2001-11-02 10:00:00,0.38
332,2001-11-02 13:00:00,0.33
335,2001-11-02 18:00:00,0.33
338,2001-11-02 23:00:00,0.27
341,2001-11-03 02:00:00,0.3
344,2001-11-03 08:00:00,0.31
347,2001-11-03 13:00:00,0.27
350,2001-11-03 16:00:00,0.26
353,2001-11-03 21:00:00,0.24
356,2001-11-04 00:00:00,0.25
359,2001-11-04 05:00:00,0.3
362,2001-11-04 10:00:00,0.0
365,2001-11-04 13:00:00,0.32
368,2001-11-04 18:00:00,0.37
371,2001-11-05 00:00:00,0.385
374,2001-11-05 03:00:00,0.35
377,2002-04-08 15:00:00,0.31
380,2002-04-08 18:00:00,0.3
383,2002-04-08 23:00:00,0.32
386,2002-04-09 04:00:00,0.0
389,2002-04-09 07:00:00,0.32
392,2002-04-09 12:00:00,0.3
395,2002-04-09 15:00:00,0.28
398,2002-04-09 20:00:00,0.29
401,2002-04-10 01:00:00,0.3
404,2002-04-10 04:00:00,0.37
407,2002-04-10 09:00:00,0.365
410,2002-04-10 12:00:00,0.355
413,2002-04-10 18:00:00,0.35
416,2002-04-10 23:00:00,0.34
419,2002-04-11 02:00:00,0.34
422,2002-04-11 07:00:00,0.305
425,2002-04-11 12:00:00,0.0
428,2002-04-11 15:00:00,0.0
431,2002-04-11 20:00:00,0.35
434,2002-04-11 23:00:00,0.3
437,2002-04-12 04:00:00,0.26
440,2002-04-12 10:00:00,0.28
443,2002-04-12 13:00:00,0.3
446,2002-04-12 18:00:00,0.31
449,2002-04-12 23:00:00,0.29
452,2002-04-13 02:00:00,0.27
455,2002-04-13 07:00:00,0.28
458,2002-04-13 10:00:00,0.3
461,2002-04-13 15:00:00,0.31
464,2002-04-13 20:00:00,0.29
467,2002-04-13 23:00:00,0.29
470,2002-04-14 04:00:00,0.305
473,2002-04-14 07:00:00,0.29
476,2002-04-14 12:00:00,0.25
479,2002-04-14 18:00:00,0.28
482,2002-04-14 21:00:00,0.31
485,2002-04-15 02:00:00,0.3
488,2002-04-15 07:00:00,0.26
491,2002-04-15 10:00:00,0.29
494,2002-04-15 15:00:00,0.33
497,2002-04-15 18:00:00,0.335
500,2002-04-15 23:00:00,0.32
503,2002-04-16 04:00:00,0.34
506,2002-04-16 07:00:00,0.33
509,2002-04-16 12:00:00,0.33
512,2002-04-16 15:00:00,0.35
515,2002-04-16 20:00:00,0.34
518,2002-10-28 14:00:00,0.32
521,2002-10-28 17:00:00,0.3
524,2002-10-28 22:00:00,0.3
527,2002-10-29 01:00:00,0.0
530,2002-10-29 06:00:00,0.29
533,2002-10-29 11:00:00,0.29
536,2002-10-29 14:00:00,0.3
539,2002-10-29 19:00:00,0.27
542,2002-10-30 01:00:00,0.3
545,2002-10-30 04:00:00,0.28
548,2002-10-30 09:00:00,0.38
551,2002-10-30 12:00:00,0.4
554,2002-10-30 17:00:00,0.37
557,2002-10-30 22:00:00,0.38
560,2002-10-31 02:00:00,0.38
563,2002-10-31 08:00:00,0.38
566,2002-10-31 13:00:00,0.38
569,2002-10-31 16:00:00,0.38
572,2002-10-31 21:00:00,0.0
575,2002-11-01 03:00:00,0.39
578,2002-11-01 06:00:00,0.44
581,2002-11-01 11:00:00,0.38
584,2002-11-01 16:00:00,0.4
587,2002-11-01 19:00:00,0.375
590,2002-11-02 00:00:00,0.4
593,2002-11-02 03:00:00,0.375
596,2002-11-02 09:00:00,0.375
599,2002-11-02 14:00:00,0.44
602,2002-11-02 17:00:00,0.41
605,2002-11-02 22:00:00,0.42
608,2002-11-03 03:00:00,0.45
611,2002-11-03 06:00:00,0.45
614,2002-11-03 11:00:00,0.43
617,2002-11-03 14:00:00,0.45
620,2002-11-03 19:00:00,0.42
623,2002-11-04 00:00:00,0.45
626,2002-11-04 03:00:00,0.45
629,2003-04-07 15:00:00,0.45
632,2003-04-07 18:00:00,0.45
635,2003-04-07 23:00:00,0.44
638,2003-04-08 05:00:00,0.48
641,2003-04-08 08:00:00,0.47
644,2003-04-08 13:00:00,0.46
647,2003-04-08 18:00:00,0.48
650,2003-04-08 21:00:00,0.48
653,2003-04-09 02:00:00,0.47
656,2003-04-09 05:00:00,0.51
659,2003-04-09 10:00:00,0.49
662,2003-04-09 16:00:00,0.495
665,2003-04-09 19:00:00,0.53
668,2003-04-10 00:00:00,0.51
671,2003-04-10 05:00:00,0.47
674,2003-04-10 08:00:00,0.49
677,2003-04-10 13:00:00,0.485
680,2003-04-10 16:00:00,0.47
683,2003-04-10 21:00:00,0.48
686,2003-04-11 02:00:00,0.48
689,2003-04-11 05:00:00,0.5
692,2003-04-11 11:00:00,0.49
695,2003-04-11 16:00:00,0.49
698,2003-04-11 19:00:00,0.5
701,2003-04-12 00:00:00,0.5
704,2003-04-12 03:00:00,0.5
707,2003-04-12 08:00:00,0.51
710,2003-04-12 13:00:00,0.51
713,2003-04-12 16:00:00,0.78
716,2003-04-12 21:00:00,0.72
719,2003-04-13 00:00:00,0.73
722,2003-04-13 05:00:00,0.69
725,2003-04-13 10:00:00,0.73
728,2003-04-13 13:00:00,0.81
731,2003-04-13 19:00:00,0.97
734,2003-04-14 00:00:00,0.95
737,2003-04-14 03:00:00,0.99
740,2003-04-14 08:00:00,0.95
743,2003-04-14 11:00:00,0.92
746,2003-04-14 16:00:00,0.9
749,2003-04-14 21:00:00,0.95
752,2003-04-15 00:00:00,0.99
755,2003-04-15 05:00:00,1.02
758,2003-04-15 08:00:00,1.03
761,2003-04-15 13:00:00,1.15
764,2003-04-15 18:00:00,1.14
767,2003-04-15 21:00:00,1.13
770,2003-10-27 15:00:00,1.11
773,2003-10-27 18:00:00,1.16
776,2003-10-27 23:00:00,1.18
779,2003-10-28 04:00:00,1.67
782,2003-10-28 07:00:00,1.4
785,2003-10-28 12:00:00,1.6
788,2003-10-28 15:00:00,1.69
791,2003-10-28 20:00:00,1.72
794,2003-10-29 02:00:00,1.64
797,2003-10-29 05:00:00,1.7
800,2003-10-29 10:00:00,2.0
803,2003-10-29 15:00:00,2.08
806,2003-10-29 18:00:00,2.42
809,2003-10-29 23:00:00,2.35
812,2003-10-30 05:00:00,2.55
815,2003-10-30 09:00:00,2.45
818,2003-10-30 14:00:00,2.6
821,2003-10-30 19:00:00,2.6
824,2003-10-30 22:00:00,2.92
827,2003-10-31 04:00:00,2.82
830,2003-10-31 09:00:00,2.85
833,2003-10-31 12:00:00,2.15
836,2003-10-31 17:00:00,2.21
839,2003-10-31 20:00:00,1.83
842,2003-11-01 01:00:00,2.32
845,2003-11-01 07:00:00,2.38
848,2003-11-01 10:00:00,2.29
851,2003-11-01 15:00:00,2.37
854,2003-11-01 20:00:00,2.41
857,2003-11-01 23:00:00,2.55
860,2003-11-02 04:00:00,2.56
863,2003-11-02 07:00:00,2.4
866,2003-11-02 12:00:00,2.35
869,2003-11-02 17:00:00,2.29
872,2003-11-02 20:00:00,2.32
875,2003-11-03 01:00:00,2.45
878,2003-11-03 04:00:00,2.67
881,2004-04-05 16:00:00,2.78
884,2004-04-05 22:00:00,2.67
887,2004-04-06 01:00:00,2.63
890,2004-04-06 06:00:00,2.45
893,2004-04-06 11:00:00,2.5
896,2004-04-06 14:00:00,2.32
899,2004-04-06 19:00:00,2.21
902,2004-04-06 22:00:00,2.3
905,2004-04-07 03:00:00,2.25
908,2004-04-07 08:00:00,2.15
911,2004-04-07 11:00:00,2.32
914,2004-04-07 16:00:00,2.25
917,2004-04-07 19:00:00,2.41
920,2004-04-08 01:00:00,2.32
923,2004-04-08 06:00:00,2.24
926,2004-04-08 12:00:00,2.26
929,2004-04-08 15:00:00,2.44
932,2004-04-08 20:00:00,2.4
935,2004-04-08 23:00:00,2.65
938,2004-04-09 04:00:00,2.64
941,2004-04-09 10:00:00,2.75
944,2004-04-09 13:00:00,2.78
947,2004-04-09 18:00:00,2.55
950,2004-04-09 23:00:00,2.58
953,2004-04-10 02:00:00,2.52
956,2004-04-10 07:00:00,2.5
959,2004-04-10 10:00:00,2.26
962,2004-04-10 15:00:00,2.42
965,2004-04-10 20:00:00,2.46
968,2004-04-10 23:00:00,2.36
971,2004-04-11 04:00:00,2.28
974,2004-04-11 07:00:00,2.34
977,2004-04-11 12:00:00,2.31
980,2004-04-11 17:00:00,2.34
983,2004-04-11 20:00:00,2.3
986,2004-04-12 02:00:00,2.3
989,2004-04-12 07:00:00,2.16
992,2004-04-12 10:00:00,2.3
995,2004-04-12 15:00:00,2.77
998,2004-04-12 18:00:00,2.75
1001,2004-04-12 23:00:00,3.11
1004,2004-04-13 04:00:00,3.2
1007,2004-04-13 07:00:00,3.97
1010,2004-04-13 12:00:00,3.85
1013,2004-04-13 15:00:00,3.85
1016,2004-04-13 20:00:00,3.83
1019,2004-04-14 01:00:00,4.2
1022,2004-04-14 04:00:00,3.75
1025,2004-11-01 15:00:00,3.75
1028,2004-11-01 18:00:00,3.83
1031,2004-11-01 23:00:00,3.72
1034,2004-11-02 04:00:00,3.56
1037,2004-11-02 07:00:00,3.75
1040,2004-11-02 12:00:00,4.15
1043,2004-11-02 18:00:00,4.99
1046,2004-11-02 21:00:00,4.83
1049,2004-11-03 02:00:00,4.53
1052,2004-11-03 05:00:00,4.7
1055,2004-11-03 10:00:00,4.76
1058,2004-11-03 15:00:00,5.04
1061,2004-11-03 18:00:00,4.82
1064,2004-11-04 00:00:00,4.91
1067,2004-11-04 05:00:00,4.5
1070,2004-11-04 08:00:00,4.57
1073,2004-11-04 13:00:00,4.61
1076,2004-11-04 16:00:00,5.1
1079,2004-11-04 22:00:00,5.59
1082,2004-11-05 03:00:00,5.75
1085,2004-11-05 06:00:00,5.84
1088,2004-11-05 11:00:00,6.25
1091,2004-11-05 16:00:00,6.704
1094,2004-11-05 19:00:00,6.38
1097,2004-11-06 00:00:00,6.64
1100,2004-11-06 03:00:00,7.25
1103,2004-11-06 09:00:00,8.25
1106,2004-11-06 14:00:00,7.0
1109,2004-11-06 17:00:00,7.01
1112,2004-11-06 22:00:00,6.91
1115,2004-11-07 03:00:00,6.2
1118,2004-11-07 06:00:00,6.11
1121,2004-11-07 11:00:00,6.65
1124,2004-11-07 17:00:00,6.14
1127,2004-11-07 20:00:00,5.98
1130,2005-04-04 15:00:00,6.15
1133,2005-04-04 18:00:00,6.15
1136,2005-04-04 23:00:00,5.49
1139,2005-04-05 04:00:00,4.75
1142,2005-04-05 07:00:00,5.0
1145,2005-04-05 12:00:00,5.9
1148,2005-04-05 15:00:00,5.0
1151,2005-04-05 20:00:00,4.96
1154,2005-04-06 01:00:00,5.12
1157,2005-04-06 04:00:00,4.8
1160,2005-04-06 09:00:00,4.55
1163,2005-04-06 12:00:00,4.35
1166,2005-04-06 17:00:00,4.42
1169,2005-04-06 23:00:00,5.07
1172,2005-04-07 02:00:00,5.36
1175,2005-04-07 07:00:00,5.53
1178,2005-04-07 12:00:00,6.35
1181,2005-04-07 15:00:00,6.41
1184,2005-04-07 20:00:00,6.84
1187,2005-04-07 23:00:00,6.8
1190,2005-04-08 04:00:00,6.21
1193,2005-04-08 10:00:00,6.7
1196,2005-04-08 13:00:00,6.88
1199,2005-04-08 18:00:00,6.76
1202,2005-04-08 23:00:00,6.18
1205,2005-04-09 02:00:00,6.25
1208,2005-04-09 07:00:00,5.95
1211,2005-04-09 10:00:00,6.51
1214,2005-04-09 15:00:00,6.3
1217,2005-04-09 20:00:00,6.22
1220,2005-04-09 23:00:00,6.37
1223,2005-04-10 04:00:00,6.15
1226,2005-04-10 07:00:00,5.92
1229,2005-04-10 12:00:00,6.16
1232,2005-04-10 17:00:00,6.17
1235,2005-04-10 20:00:00,6.23
1238,2005-04-11 02:00:00,6.08
1241,2005-04-11 07:00:00,5.95
1244,2005-04-11 10:00:00,5.89
1247,2005-04-11 15:00:00,6.27
1250,2005-04-11 18:00:00,6.1
1253,2005-04-11 23:00:00,6.26
1256,2005-04-12 04:00:00,6.15
1259,2005-04-12 07:00:00,5.74
1262,2005-04-12 12:00:00,5.56
1265,2005-04-12 15:00:00,5.18
1268,2005-04-12 20:00:00,4.85
1271,2005-04-13 01:00:00,4.5
1274,2005-04-13 04:00:00,4.74
1277,2005-10-31 15:00:00,4.85
1280,2005-10-31 18:00:00,5.27
1283,2005-10-31 23:00:00,5.111
1286,2005-11-01 04:00:00,4.98
1289,2005-11-01 07:00:00,5.13
1292,2005-11-01 12:00:00,5.5
1295,2005-11-01 18:00:00,5.03
1298,2005-11-01 21:00:00,5.18
1301,2005-11-02 02:00:00,5.22
1304,2005-11-02 05:00:00,5.33
1307,2005-11-02 10:00:00,5.71
1310,2005-11-02 15:00:00,5.34
1313,2005-11-02 18:00:00,5.3
1316,2005-11-03 00:00:00,5.16
1319,2005-11-03 06:00:00,5.11
1322,2005-11-03 09:00:00,5.06
1325,2005-11-03 14:00:00,5.0
1328,2005-11-03 20:00:00,5.08
1331,2005-11-03 23:00:00,5.19
1334,2005-11-04 04:00:00,5.52
1337,2005-11-04 09:00:00,5.55
1340,2005-11-04 12:00:00,5.6
1343,2005-11-04 17:00:00,5.9
1346,2005-11-04 20:00:00,5.74
1349,2005-11-05 01:00:00,5.15
1352,2005-11-05 07:00:00,5.71
1355,2005-11-05 10:00:00,5.91
1358,2005-11-05 15:00:00,5.6
1361,2005-11-05 20:00:00,5.7
1364,2005-11-05 23:00:00,5.35
1367,2005-11-06 04:00:00,5.55
1370,2005-11-06 07:00:00,5.55
1373,2005-11-06 12:00:00,5.29
1376,2005-11-06 17:00:00,5.42
1379,2005-11-06 20:00:00,5.38
1382,2006-04-03 15:00:00,5.21
1385,2006-04-03 18:00:00,5.7
1388,2006-04-03 23:00:00,5.83
1391,2006-04-04 05:00:00,6.0
1394,2006-04-04 08:00:00,5.95
1397,2006-04-04 13:00:00,5.95
1400,2006-04-04 18:00:00,5.8
1403,2006-04-04 21:00:00,5.82
1406,2006-04-05 02:00:00,5.72
1409,2006-04-05 05:00:00,5.44
1412,2006-04-05 10:00:00,5.16
1415,2006-04-05 15:00:00,4.75
1418,2006-04-05 18:00:00,5.0
1421,2006-04-06 00:00:00,5.02
1424,2006-04-06 05:00:00,5.15
1427,2006-04-06 08:00:00,4.55
1430,2006-04-06 13:00:00,4.32
1433,2006-04-06 16:00:00,4.55
1436,2006-04-06 21:00:00,4.4
1439,2006-04-07 02:00:00,4.52
1442,2006-04-07 05:00:00,4.54
1445,2006-04-07 11:00:00,5.02
1448,2006-04-07 16:00:00,4.87
1451,2006-04-07 19:00:00,4.81
1454,2006-04-08 00:00:00,4.55
1457,2006-04-08 03:00:00,4.5
1460,2006-04-08 08:00:00,4.61
1463,2006-04-08 13:00:00,4.8
1466,2006-04-08 16:00:00,4.65
1469,2006-04-08 21:00:00,4.91
1472,2006-04-09 00:00:00,4.74
1475,2006-04-09 05:00:00,4.76
1478,2006-04-09 10:00:00,4.78
1481,2006-04-09 13:00:00,4.76
1484,2006-04-09 18:00:00,4.75
1487,2006-04-09 21:00:00,4.87
1490,2006-04-10 03:00:00,5.02
1493,2006-04-10 08:00:00,4.62
1496,2006-04-10 11:00:00,4.577
1499,2006-04-10 16:00:00,4.66
1502,2006-04-10 21:00:00,4.5
1505,2006-04-11 00:00:00,4.65
1508,2006-04-11 05:00:00,4.56
1511,2006-04-11 08:00:00,4.36
1514,2006-04-11 13:00:00,4.4
1517,2006-04-11 18:00:00,4.8
1520,2006-04-11 21:00:00,4.73
1523,2006-04-12 02:00:00,4.63
1526,2006-04-12 05:00:00,4.7
1529,2006-10-30 16:00:00,4.58
1532,2006-10-30 21:00:00,4.58
1535,2006-10-31 00:00:00,4.6
1538,2006-10-31 05:00:00,4.72
1541,2006-10-31 08:00:00,4.81
1544,2006-10-31 13:00:00,5.0
1547,2006-10-31 19:00:00,5.01
1550,2006-10-31 22:00:00,5.1
1553,2006-11-01 03:00:00,5.02
1556,2006-11-01 08:00:00,5.37
1559,2006-11-01 11:00:00,5.31
1562,2006-11-01 16:00:00,5.022
1565,2006-11-01 19:00:00,4.95
1568,2006-11-02 01:00:00,4.85
1571,2006-11-02 08:00:00,4.6
1574,2006-11-02 13:00:00,4.7
1577,2006-11-02 16:00:00,4.65
1580,2006-11-02 22:00:00,4.8
1583,2006-11-03 03:00:00,4.8
1586,2006-11-03 06:00:00,4.85
1589,2006-11-03 11:00:00,4.84
1592,2006-11-03 16:00:00,4.65
1595,2006-11-03 19:00:00,4.7
1598,2006-11-04 00:00:00,4.45
1601,2006-11-04 03:00:00,4.38
1604,2006-11-04 09:00:00,4.411
1607,2006-11-04 14:00:00,4.37
1610,2006-11-04 17:00:00,4.11
1613,2006-11-04 22:00:00,4.32
1616,2007-03-12 14:00:00,4.36
1619,2007-03-12 17:00:00,4.09
1622,2007-03-12 22:00:00,3.84
1625,2007-03-13 01:00:00,3.95
1628,2007-03-13 06:00:00,3.885
1631,2007-03-13 11:00:00,3.94
1634,2007-03-13 14:00:00,3.98
1637,2007-03-13 20:00:00,3.8
1640,2007-03-14 01:00:00,3.91
1643,2007-03-14 04:00:00,3.9
1646,2007-03-14 09:00:00,4.11
1649,2007-03-14 12:00:00,4.13
1652,2007-03-14 17:00:00,4.06
1655,2007-03-14 22:00:00,4.0
1658,2007-03-15 01:00:00,3.96
1661,2007-03-15 06:00:00,3.85
1664,2007-03-15 09:00:00,3.85
1667,2007-03-15 14:00:00,3.81
1670,2007-03-15 20:00:00,3.85
1673,2007-03-15 23:00:00,3.96
1676,2007-03-16 04:00:00,4.05
1679,2007-03-16 09:00:00,4.0
1682,2007-03-16 12:00:00,3.91
1685,2007-03-16 17:00:00,3.92
1688,2007-03-16 20:00:00,4.3
1691,2007-03-17 01:00:00,4.14
1694,2007-03-17 06:00:00,4.4
1697,2007-03-17 10:00:00,4.65
1700,2007-03-17 15:00:00,4.77
1703,2007-03-17 20:00:00,5.08
1706,2007-03-17 23:00:00,5.22
1709,2007-03-18 04:00:00,4.8
1712,2007-03-18 07:00:00,4.72
1715,2007-03-18 12:00:00,4.18
1718,2007-03-18 17:00:00,3.93
1721,2007-03-18 20:00:00,3.67
1724,2007-03-19 01:00:00,3.59
1727,2007-03-19 04:00:00,3.55
1730,2007-03-19 09:00:00,3.82
1733,2007-03-19 14:00:00,4.05
1736,2007-03-19 17:00:00,3.85
1739,2007-03-19 23:00:00,3.98
1742,2007-03-20 04:00:00,4.34
1745,2007-03-20 07:00:00,4.43
1748,2007-03-20 12:00:00,4.48
1751,2007-03-20 15:00:00,4.6
1754,2007-03-20 20:00:00,4.57
1757,2007-03-21 01:00:00,4.77
1760,2007-03-21 04:00:00,4.85
1763,2007-03-21 09:00:00,4.981
1766,2007-03-21 12:00:00,4.98
1769,2007-03-21 17:00:00,5.25
1772,2007-03-21 22:00:00,5.2
1775,2007-03-22 01:00:00,5.4
1778,2007-03-22 06:00:00,5.52
1781,2007-03-22 09:00:00,5.45
1784,2007-11-05 16:00:00,5.64
1787,2007-11-05 21:00:00,5.1
1790,2007-11-06 00:00:00,5.15
1793,2007-11-06 05:00:00,5.19
1796,2007-11-06 11:00:00,5.3
1799,2007-11-06 14:00:00,5.21
1802,2007-11-06 19:00:00,5.0
1805,2007-11-06 22:00:00,5.23
1808,2007-11-07 03:00:00,5.31
1811,2007-11-07 08:00:00,5.3
1814,2007-11-07 11:00:00,4.78
1817,2007-11-07 17:00:00,5.11
1820,2007-11-07 22:00:00,5.05
1823,2007-11-08 02:00:00,5.04
1826,2007-11-08 07:00:00,5.0
1829,2007-11-08 12:00:00,5.18
1832,2007-11-08 15:00:00,4.8
1835,2007-11-08 21:00:00,4.26
1838,2007-11-09 02:00:00,4.5
1841,2007-11-09 05:00:00,4.73
1844,2007-11-09 10:00:00,4.8
1847,2007-11-09 13:00:00,4.81
1850,2007-11-09 18:00:00,5.04
1853,2007-11-10 00:00:00,5.27
1856,2007-11-10 03:00:00,5.3
1859,2007-11-10 08:00:00,5.41
1862,2007-11-10 13:00:00,5.34
1865,2007-11-10 16:00:00,5.44
1868,2008-03-10 15:00:00,4.92
1871,2008-03-10 18:00:00,4.87
1874,2008-03-10 23:00:00,4.37
1877,2008-03-11 05:00:00,4.46
1880,2008-03-11 08:00:00,4.89
1883,2008-03-11 13:00:00,4.74
1886,2008-03-11 18:00:00,4.61
1889,2008-03-11 21:00:00,4.65
1892,2008-03-12 02:00:00,4.55
1895,2008-03-12 05:00:00,4.93
1898,2008-03-12 10:00:00,4.82
1901,2008-03-12 15:00:00,4.71
1904,2008-03-12 18:00:00,4.45
1907,2008-03-12 23:00:00,4.78
1910,2008-03-13 02:00:00,4.82
1913,2008-03-13 07:00:00,4.83
1916,2008-03-13 12:00:00,5.0
1919,2008-03-13 15:00:00,5.18
1922,2008-03-13 21:00:00,4.93
1925,2008-03-14 02:00:00,5.12
1928,2008-03-14 05:00:00,4.95
1931,2008-03-14 10:00:00,4.99
1934,2008-03-14 13:00:00,5.13
1937,2008-03-14 18:00:00,5.14
1940,2008-03-14 23:00:00,5.02
1943,2008-03-15 02:00:00,5.18
1946,2008-03-15 07:00:00,4.98
1949,2008-03-15 13:00:00,4.65
1952,2008-03-15 16:00:00,4.5
1955,2008-03-15 21:00:00,4.58
1958,2008-03-16 00:00:00,4.33
1961,2008-03-16 05:00:00,4.0601
1964,2008-03-16 10:00:00,4.07
1967,2008-03-16 13:00:00,4.1
1970,2008-03-16 18:00:00,3.85
1973,2008-03-16 21:00:00,3.7
1976,2008-03-17 02:00:00,3.82
1979,2008-03-17 07:00:00,3.8
1982,2008-03-17 10:00:00,4.05
1985,2008-03-17 15:00:00,3.76
1988,2008-03-17 18:00:00,3.79
1991,2008-03-18 00:00:00,3.69
1994,2008-03-18 05:00:00,3.39
1997,2008-03-18 08:00:00,3.23
2000,2008-03-18 13:00:00,2.84
2003,2008-03-18 18:00:00,3.16
2006,2008-03-18 21:00:00,3.03
2009,2008-03-19 02:00:00,2.71
2012,2008-03-19 05:00:00,2.65
2015,2008-03-19 10:00:00,1.9
2018,2008-03-19 15:00:00,1.62
2021,2008-03-19 18:00:00,1.7
2024,2008-03-19 23:00:00,1.88
2027,2008-03-20 02:00:00,1.65
2030,2008-03-20 07:00:00,1.65
2033,2008-11-03 14:00:00,2.2
2036,2008-11-03 17:00:00,2.28
2039,2008-11-03 22:00:00,2.23
2042,2008-11-04 01:00:00,2.0
2045,2008-11-04 06:00:00,1.93
2048,2008-11-04 11:00:00,1.71
2051,2008-11-04 15:00:00,2.0
2054,2008-11-04 20:00:00,1.95
2057,2008-11-05 01:00:00,1.94
2060,2008-11-05 04:00:00,2.1
2063,2008-11-05 09:00:00,2.25
2066,2008-11-05 12:00:00,2.45
2069,2008-11-05 17:00:00,2.1
2072,2008-11-05 23:00:00,2.27
2075,2008-11-06 05:00:00,2.31
2078,2008-11-06 08:00:00,2.39
2081,2008-11-06 13:00:00,2.35
2084,2008-11-06 16:00:00,2.29
2087,2008-11-06 22:00:00,2.31
2090,2008-11-07 03:00:00,2.8842
2093,2008-11-07 06:00:00,2.88
2096,2008-11-07 11:00:00,2.73
2099,2008-11-07 16:00:00,2.77
2102,2008-11-07 19:00:00,2.61
2105,2008-11-08 01:00:00,2.53
2108,2008-11-08 06:00:00,2.28
2111,2008-11-08 09:00:00,2.62
2114,2008-11-08 14:00:00,2.2699
2117,2008-11-08 17:00:00,2.41
2120,2009-03-09 16:00:00,2.57
2123,2009-03-09 21:00:00,2.52
2126,2009-03-10 00:00:00,2.7
2129,2009-03-10 05:00:00,2.7
2132,2009-03-10 08:00:00,2.8
2135,2009-03-10 13:00:00,2.71
2138,2009-03-10 18:00:00,2.36
2141,2009-03-10 21:00:00,2.39
2144,2009-03-11 03:00:00,2.35
2147,2009-03-11 08:00:00,2.36
2150,2009-03-11 11:00:00,2.36
2153,2009-03-11 16:00:00,2.4
2156,2009-03-11 19:00:00,2.55
2159,2009-03-12 00:00:00,2.77
2162,2009-03-12 05:00:00,2.69
2165,2009-03-12 08:00:00,2.52
2168,2009-03-12 13:00:00,2.6
2171,2009-03-12 16:00:00,2.51
2174,2009-03-12 22:00:00,2.51
2177,2009-03-13 03:00:00,2.74
2180,2009-03-13 06:00:00,2.71
2183,2009-03-13 11:00:00,2.8
2186,2009-03-13 16:00:00,2.66
2189,2009-03-13 19:00:00,2.66
2192,2009-03-14 00:00:00,2.5961
2195,2009-03-14 03:00:00,2.64
2198,2009-03-14 08:00:00,2.62
2201,2009-03-14 14:00:00,2.42
2204,2009-03-14 17:00:00,2.24
2207,2009-03-14 22:00:00,2.49
2210,2009-03-15 03:00:00,2.7935
2213,2009-03-15 06:00:00,2.9402
2216,2009-03-15 11:00:00,2.96
2219,2009-03-15 14:00:00,3.08
2222,2009-03-15 19:00:00,3.15
2225,2009-03-16 00:00:00,3.06
2228,2009-03-16 03:00:00,3.11
2231,2009-03-16 08:00:00,3.05
2234,2009-03-16 11:00:00,3.09
2237,2009-03-16 16:00:00,3.06
2240,2009-03-16 21:00:00,3.012
2243,2009-03-17 00:00:00,3.06
2246,2009-03-17 06:00:00,3.4
2249,2009-03-17 11:00:00,3.25
2252,2009-03-17 14:00:00,3.5
2255,2009-03-17 19:00:00,3.6204
2258,2009-03-17 22:00:00,3.41
2261,2009-03-18 03:00:00,3.46
2264,2009-03-18 08:00:00,3.51
2267,2009-03-18 11:00:00,3.81
2270,2009-03-18 16:00:00,4.1
2273,2009-03-18 19:00:00,4.23
2276,2009-03-19 00:00:00,4.39
2279,2009-03-19 05:00:00,4.15
2282,2009-03-19 08:00:00,3.78
2285,2009-11-02 15:00:00,3.68
2288,2009-11-02 18:00:00,3.58
2291,2009-11-02 23:00:00,3.41
2294,2009-11-03 04:00:00,3.57
2297,2009-11-03 07:00:00,3.4
2300,2009-11-03 12:00:00,3.53
2303,2009-11-30 14:00:00,3.56
2306,2009-11-30 17:00:00,3.56
2309,2009-11-30 22:00:00,3.4
2312,2009-12-01 01:00:00,3.29
2315,2009-12-01 06:00:00,3.44
2318,2009-12-01 11:00:00,3.42
2321,2009-12-24 11:00:00,3.35
2324,2009-12-28 16:00:00,3.31
2327,2009-12-28 22:00:00,3.41
2330,2009-12-29 01:00:00,3.69
2333,2009-12-29 06:00:00,3.62
2336,2009-12-29 12:00:00,3.57
2339,2009-12-29 15:00:00,3.44
2342,2009-12-29 20:00:00,3.45
2345,2009-12-30 01:00:00,3.6
2348,2009-12-30 04:00:00,3.52
2351,2009-12-30 09:00:00,3.66
2354,2009-12-30 12:00:00,3.75
2357,2009-12-30 18:00:00,3.92
2360,2009-12-30 23:00:00,3.85
2363,2009-12-31 02:00:00,3.81
2366,2009-12-31 07:00:00,3.87
2369,2009-12-31 12:00:00,3.92
2372,2009-12-31 15:00:00,4.105
2375,2010-03-15 15:00:00,4.4301
2378,2010-03-15 18:00:00,4.32
2381,2010-03-15 23:00:00,4.65
2384,2010-03-16 04:00:00,5.35
2387,2010-03-16 11:00:00,6.16
2390,2010-03-16 14:00:00,5.81
2393,2010-03-16 19:00:00,6.35
2396,2010-03-16 22:00:00,6.43
2399,2010-03-17 03:00:00,7.04
2402,2010-03-17 08:00:00,7.2
2405,2010-03-17 11:00:00,7.12
2408,2010-03-17 16:00:00,7.2
2411,2010-03-17 19:00:00,6.53
2414,2010-03-18 00:00:00,7.39
2417,2010-03-18 05:00:00,7.12
2420,2010-03-18 08:00:00,6.56
2423,2010-03-18 13:00:00,6.16
2426,2010-03-18 16:00:00,6.84
2429,2010-03-18 22:00:00,7.48
2432,2010-03-19 03:00:00,7.26
2435,2010-03-19 06:00:00,7.6199
2438,2010-03-19 11:00:00,7.94
2441,2010-03-19 16:00:00,7.8
2444,2010-03-19 19:00:00,7.3
2447,2010-03-20 00:00:00,7.24
2450,2010-03-20 03:00:00,6.95
2453,2010-03-20 09:00:00,7.33
2456,2010-03-20 14:00:00,7.48
2459,2010-03-20 17:00:00,7.17
2462,2010-03-20 22:00:00,7.08
2465,2010-03-21 03:00:00,7.37
2468,2010-03-21 06:00:00,7.33
2471,2010-03-21 11:00:00,7.54
2474,2010-03-21 14:00:00,7.58
2477,2010-03-21 19:00:00,7.4
2480,2010-03-22 00:00:00,7.35
2483,2010-03-22 03:00:00,7.63
2486,2010-03-22 08:00:00,7.35
2489,2010-03-22 11:00:00,7.26
2492,2010-03-22 16:00:00,7.16
2495,2010-03-22 22:00:00,7.15
2498,2010-03-23 01:00:00,7.41
2501,2010-03-23 06:00:00,7.67
2504,2010-03-23 11:00:00,7.96
2507,2010-03-23 14:00:00,8.67
2510,2010-03-23 19:00:00,9.51
2513,2010-03-23 22:00:00,9.52
2516,2010-03-24 03:00:00,9.71
2519,2010-03-24 08:00:00,9.75
2522,2010-03-24 11:00:00,10.46
2525,2010-03-24 16:00:00,9.745
2528,2010-03-24 19:00:00,10.22
2531,2010-03-25 00:00:00,10.15
2534,2010-03-25 05:00:00,10.64
2537,2010-03-25 08:00:00,12.0
2540,2010-11-08 15:00:00,14.78
2543,2010-11-08 18:00:00,15.011
2546,2010-11-08 23:00:00,13.6901
2549,2010-11-09 04:00:00,15.023
2552,2010-11-26 11:00:00,16.34
2555,2010-11-29 16:00:00,16.63
2558,2010-11-29 21:00:00,18.8348
2561,2010-11-30 00:00:00,17.18
2564,2010-11-30 05:00:00,14.96
2567,2010-11-30 08:00:00,14.51
2570,2010-11-30 13:00:00,15.14
2573,2010-11-30 19:00:00,15.56
2576,2010-11-30 22:00:00,15.7501
2579,2010-12-01 03:00:00,15.54
2582,2010-12-01 08:00:00,14.93
2585,2010-12-01 11:00:00,15.13
2588,2010-12-01 17:00:00,14.49
2591,2010-12-01 22:00:00,13.95
2594,2010-12-02 01:00:00,13.11
2597,2010-12-02 06:00:00,12.13
2600,2010-12-02 09:00:00,13.23
2603,2010-12-02 14:00:00,14.7
2606,2010-12-02 19:00:00,14.95
2609,2010-12-02 22:00:00,14.94
2612,2010-12-03 04:00:00,13.41
2615,2010-12-03 09:00:00,14.16
2618,2010-12-03 12:00:00,14.21
2621,2010-12-03 17:00:00,14.8
2624,2010-12-03 20:00:00,12.94
2627,2011-03-14 16:00:00,13.07
2630,2011-03-14 21:00:00,13.63
2633,2011-03-15 00:00:00,13.82
2636,2011-03-15 05:00:00,14.56
2639,2011-03-15 08:00:00,15.04
2642,2011-03-15 13:00:00,15.25
2645,2011-03-15 18:00:00,14.88
2648,2011-03-15 21:00:00,14.02
2651,2011-03-16 02:00:00,13.5
2654,2011-03-16 08:00:00,13.65
2657,2011-03-16 11:00:00,14.2
2660,2011-03-16 16:00:00,13.22
2663,2011-03-16 19:00:00,12.47
2666,2011-03-17 00:00:00,13.35
2669,2011-03-17 05:00:00,12.68
2672,2011-03-17 08:00:00,12.79
2675,2011-03-17 13:00:00,13.06
2678,2011-03-17 16:00:00,13.74
2681,2011-03-17 22:00:00,14.16
2684,2011-03-18 03:00:00,13.43
2687,2011-03-18 06:00:00,12.755
2690,2011-03-18 11:00:00,12.25
2693,2011-03-18 16:00:00,11.23
2696,2011-03-18 19:00:00,10.51
2699,2011-03-19 00:00:00,10.48
2702,2011-03-19 03:00:00,11.28
2705,2011-03-19 09:00:00,12.62
2708,2011-03-19 14:00:00,11.67
2711,2011-03-19 17:00:00,11.81
2714,2011-03-19 22:00:00,11.75
2717,2011-03-20 03:00:00,11.731
2720,2011-03-20 06:00:00,11.0
2723,2011-03-20 11:00:00,9.71
2726,2011-03-20 14:00:00,8.62
2729,2011-03-20 19:00:00,8.5
2732,2011-03-21 00:00:00,9.43
2735,2011-03-21 03:00:00,8.5
2738,2011-03-21 08:00:00,8.62
2741,2011-03-21 11:00:00,8.64
2744,2011-03-21 16:00:00,9.52
2747,2011-03-21 22:00:00,8.8
2750,2011-03-22 01:00:00,9.42
2753,2011-03-22 06:00:00,8.96
2756,2011-03-22 11:00:00,9.86
2759,2011-03-22 14:00:00,8.34
2762,2011-03-22 19:00:00,8.86
2765,2011-03-22 22:00:00,7.95
2768,2011-03-23 03:00:00,7.41
2771,2011-03-23 08:00:00,7.806
2774,2011-03-23 11:00:00,8.58
2777,2011-03-23 16:00:00,8.6
2780,2011-03-23 19:00:00,9.29
2783,2011-03-24 00:00:00,9.75
2786,2011-03-24 05:00:00,10.09
2789,2011-03-24 08:00:00,9.82
2792,2011-11-07 15:00:00,9.81
2795,2011-11-07 18:00:00,9.3995
2798,2011-11-07 23:00:00,9.12
2801,2011-11-08 04:00:00,7.81
2804,2011-11-25 11:00:00,7.31
2807,2011-11-28 16:00:00,8.04
2810,2011-11-28 21:00:00,8.16
2813,2011-11-29 00:00:00,7.5
2816,2011-11-29 05:00:00,6.87
2819,2011-11-29 08:00:00,6.94
2822,2011-11-29 13:00:00,7.7104
2825,2011-11-29 19:00:00,7.81
2828,2011-11-29 22:00:00,7.77
2831,2011-11-30 04:00:00,8.1
2834,2011-11-30 09:00:00,9.19
2837,2011-11-30 12:00:00,8.59
2840,2011-11-30 18:00:00,8.9
2843,2011-11-30 23:00:00,9.48
2846,2011-12-01 02:00:00,9.34
2849,2011-12-01 07:00:00,9.7
2852,2011-12-01 12:00:00,9.91
2855,2011-12-01 15:00:00,10.27
2858,2011-12-01 20:00:00,10.13
2861,2011-12-01 23:00:00,10.44
2864,2011-12-02 05:00:00,10.41
2867,2011-12-02 10:00:00,11.02
2870,2011-12-02 13:00:00,11.47
2873,2011-12-02 18:00:00,11.12
2876,2012-03-12 14:00:00,11.46
2879,2012-03-12 17:00:00,11.83
2882,2012-03-12 22:00:00,11.6
2885,2012-03-13 01:00:00,11.6
2888,2012-03-13 06:00:00,12.25
2891,2012-03-13 11:00:00,12.04
2894,2012-03-13 14:00:00,12.31
2897,2012-03-13 20:00:00,12.38
2900,2012-03-14 01:00:00,12.65
2903,2012-03-14 04:00:00,12.95
2906,2012-03-14 09:00:00,12.95
2909,2012-03-14 12:00:00,13.8
2912,2012-03-14 17:00:00,14.1
2915,2012-03-14 22:00:00,11.52
2918,2012-03-15 01:00:00,11.65
2921,2012-03-15 06:00:00,10.81
2924,2012-03-15 09:00:00,10.04
2927,2012-03-15 14:00:00,10.07
2930,2012-03-15 20:00:00,10.5
2933,2012-03-15 23:00:00,9.39
2936,2012-03-16 04:00:00,9.63
2939,2012-03-16 09:00:00,9.725
2942,2012-03-16 12:00:00,9.52
2945,2012-03-16 17:00:00,9.24
2948,2012-03-16 20:00:00,7.83
2951,2012-03-17 01:00:00,7.8
2954,2012-03-17 06:00:00,8.64
2957,2012-03-17 10:00:00,8.7
2960,2012-03-17 15:00:00,8.77
2963,2012-03-17 20:00:00,8.6799
2966,2012-03-17 23:00:00,8.9
2969,2012-03-18 04:00:00,8.63
2972,2012-03-18 07:00:00,9.26
2975,2012-03-18 12:00:00,9.33
2978,2012-03-18 17:00:00,9.25
2981,2012-03-18 20:00:00,8.86
2984,2012-03-19 01:00:00,9.38
2987,2012-03-19 04:00:00,9.91
2990,2012-03-19 09:00:00,10.69
2993,2012-03-19 14:00:00,10.46
2996,2012-03-19 17:00:00,10.23
2999,2012-03-19 23:00:00,10.21
3002,2012-03-20 04:00:00,11.7
3005,2012-03-20 07:00:00,11.32
3008,2012-03-20 12:00:00,11.71
3011,2012-03-20 15:00:00,11.12
3014,2012-03-20 20:00:00,10.17
3017,2012-03-21 01:00:00,10.9
3020,2012-03-21 04:00:00,11.09
3023,2012-03-21 09:00:00,11.08
3026,2012-03-21 12:00:00,11.08
3029,2012-03-21 17:00:00,11.23
3032,2012-03-21 22:00:00,11.23
3035,2012-03-22 01:00:00,10.7
3038,2012-03-22 08:00:00,10.77
3041,2012-11-05 15:00:00,11.94
3044,2012-11-05 18:00:00,11.37
3047,2012-11-05 23:00:00,10.97
3050,2012-11-06 04:00:00,10.81
3053,2012-11-23 11:00:00,11.08
3056,2012-11-26 16:00:00,10.04
3059,2012-11-26 21:00:00,10.21
3062,2012-11-27 00:00:00,9.65
3065,2012-11-27 05:00:00,9.8
3068,2012-11-27 08:00:00,9.42
3071,2012-11-27 13:00:00,9.63
3074,2012-12-24 11:00:00,9.58
3077,2012-12-26 16:00:00,9.28
3080,2012-12-26 22:00:00,9.3544
3083,2012-12-27 03:00:00,8.98
3086,2012-12-27 06:00:00,8.66
3089,2012-12-27 11:00:00,8.22
3092,2012-12-27 17:00:00,8.64
3095,2012-12-27 20:00:00,8.25
3098,2012-12-28 01:00:00,8.33
3101,2012-12-28 06:00:00,8.65
3104,2012-12-28 09:00:00,8.76
3107,2012-12-28 14:00:00,8.61
3110,2012-12-28 17:00:00,8.12
3113,2012-12-28 23:00:00,7.37
3116,2012-12-29 04:00:00,7.77
3119,2012-12-29 07:00:00,7.85
3122,2012-12-29 12:00:00,8.47
3125,2013-03-11 14:00:00,8.86
3128,2013-03-11 17:00:00,8.88
3131,2013-03-11 22:00:00,8.96
3134,2013-03-12 01:00:00,8.67
3137,2013-03-12 06:00:00,8.53
3140,2013-03-12 12:00:00,8.02
3143,2013-03-12 15:00:00,7.4
3146,2013-03-12 20:00:00,7.55
3149,2013-03-13 01:00:00,7.3299
3152,2013-03-13 04:00:00,6.875
3155,2013-03-13 09:00:00,7.225
3158,2013-03-13 12:00:00,7.78
3161,2013-03-13 17:00:00,7.7
3164,2013-03-13 22:00:00,8.13
3167,2013-03-14 01:00:00,8.2
3170,2013-03-14 06:00:00,7.88
3173,2013-03-14 09:00:00,7.39
3176,2013-03-14 14:00:00,7.45
3179,2013-03-14 20:00:00,7.275
3182,2013-03-14 23:00:00,7.32
3185,2013-03-15 04:00:00,7.05
3188,2013-03-15 09:00:00,7.12
3191,2013-03-15 12:00:00,7.05
3194,2013-03-15 17:00:00,7.05
3197,2013-03-15 20:00:00,5.63
3200,2013-03-16 01:00:00,5.7
3203,2013-03-16 06:00:00,6.15
3206,2013-03-16 10:00:00,6.06
3209,2013-03-16 15:00:00,5.73
3212,2013-03-16 20:00:00,6.0
3215,2013-03-16 23:00:00,6.09
3218,2013-03-17 04:00:00,6.13
3221,2013-03-17 07:00:00,6.2
3224,2013-03-17 12:00:00,6.3
3227,2013-03-17 17:00:00,6.56
3230,2013-03-17 20:00:00,6.89
3233,2013-03-18 01:00:00,6.36
3236,2013-03-18 04:00:00,6.36
3239,2013-03-18 09:00:00,6.66
3242,2013-03-18 14:00:00,6.9201
3245,2013-03-18 17:00:00,6.56
3248,2013-03-18 23:00:00,7.02
3251,2013-03-19 04:00:00,7.19
3254,2013-03-19 07:00:00,7.3135
3257,2013-03-19 12:00:00,7.6946
3260,2013-03-19 15:00:00,7.54
3263,2013-03-19 20:00:00,7.74
3266,2013-03-20 01:00:00,7.75
3269,2013-03-20 04:00:00,8.07
3272,2013-03-20 09:00:00,8.84
3275,2013-03-20 12:00:00,8.845
3278,2013-03-20 17:00:00,8.93
3281,2013-03-20 22:00:00,9.24
3284,2013-03-21 01:00:00,9.06
3287,2013-03-21 06:00:00,9.07
3290,2013-03-21 09:00:00,8.83
3293,2013-11-04 16:00:00,9.1029
3296,2013-11-04 21:00:00,8.86
3299,2013-11-05 00:00:00,8.64
3302,2013-11-05 05:00:00,8.55
3305,2013-11-05 08:00:00,8.68
3308,2013-11-05 13:00:00,8.63
3311,2013-11-05 19:00:00,8.67
3314,2013-11-05 22:00:00,9.06
3317,2013-11-06 03:00:00,8.56
3320,2013-11-06 08:00:00,8.57
3323,2013-11-06 11:00:00,8.29
3326,2013-11-06 16:00:00,8.13
3329,2013-11-06 22:00:00,8.22
3332,2013-11-07 02:00:00,8.28
3335,2013-11-07 07:00:00,8.27
3338,2013-11-07 12:00:00,8.03
3341,2013-11-07 15:00:00,8.34
3344,2013-11-07 21:00:00,8.2
3347,2013-11-08 02:00:00,7.8595
3350,2013-11-08 05:00:00,7.32
3353,2013-11-08 10:00:00,6.33
3356,2013-11-08 13:00:00,7.09
3359,2013-11-08 18:00:00,7.12
3362,2013-11-09 00:00:00,7.25
3365,2013-11-09 03:00:00,7.09
3368,2013-11-09 08:00:00,7.31
3371,2013-11-09 13:00:00,7.35
3374,2013-11-09 16:00:00,7.7
3377,2014-03-10 15:00:00,7.53
3380,2014-03-10 18:00:00,7.35
3383,2014-03-10 23:00:00,7.36
3386,2014-03-11 04:00:00,7.26
3389,2014-03-11 07:00:00,7.32
3392,2014-03-11 12:00:00,7.44
3395,2014-03-11 15:00:00,7.61
3398,2014-03-11 20:00:00,7.42
3401,2014-03-12 01:00:00,7.35
3404,2014-03-12 04:00:00,7.59
3407,2014-03-12 10:00:00,7.5
3410,2014-03-12 15:00:00,7.8
3413,2014-03-12 18:00:00,7.57
3416,2014-03-12 23:00:00,8.08
3419,2014-03-13 02:00:00,6.5
3422,2014-03-13 07:00:00,6.58
3425,2014-03-13 12:00:00,6.49
3428,2014-03-13 15:00:00,6.57
3431,2014-03-13 21:00:00,6.65
3434,2014-03-14 02:00:00,6.87
3437,2014-03-14 05:00:00,6.84
3440,2014-03-14 10:00:00,7.1
3443,2014-03-14 13:00:00,7.14
3446,2014-03-14 18:00:00,7.11
3449,2014-03-14 23:00:00,7.43
3452,2014-03-15 02:00:00,7.13
3455,2014-03-15 07:00:00,7.47
3458,2014-03-15 13:00:00,7.05
3461,2014-03-15 16:00:00,6.86
3464,2014-03-15 21:00:00,6.55
3467,2014-03-16 00:00:00,6.54
3470,2014-03-16 05:00:00,6.64
3473,2014-03-16 10:00:00,6.58
3476,2014-03-16 13:00:00,6.24
3479,2014-03-16 18:00:00,6.08
3482,2014-03-16 21:00:00,6.09
3485,2014-03-17 02:00:00,6.0
3488,2014-03-17 07:00:00,6.23
3491,2014-03-17 10:00:00,6.31
3494,2014-03-17 15:00:00,6.64
3497,2014-03-17 18:00:00,6.71
3500,2014-03-18 00:00:00,6.5
3503,2014-03-18 05:00:00,6.15
3506,2014-03-18 08:00:00,6.2
3509,2014-03-18 13:00:00,6.48
3512,2014-03-18 18:00:00,5.99
3515,2014-03-18 21:00:00,5.81
3518,2014-03-19 02:00:00,5.98
3521,2014-03-19 05:00:00,5.5
3524,2014-03-19 10:00:00,5.19
3527,2014-03-19 15:00:00,5.01
3530,2014-03-19 18:00:00,4.7
3533,2014-03-19 23:00:00,4.93
3536,2014-03-20 02:00:00,4.66
3539,2014-03-20 07:00:00,4.5
3542,2014-11-03 14:00:00,4.17
3545,2014-11-03 17:00:00,3.94
3548,2014-11-03 22:00:00,3.933
3551,2014-11-04 01:00:00,3.75
3554,2014-11-04 06:00:00,3.71
3557,2014-11-04 11:00:00,3.73
3560,2014-11-04 15:00:00,3.209
3563,2014-11-04 20:00:00,3.17
3566,2014-11-05 01:00:00,3.03
3569,2014-11-05 04:00:00,2.88
3572,2014-11-05 09:00:00,2.86
3575,2014-11-05 12:00:00,3.31
3578,2014-11-05 17:00:00,3.48
3581,2014-11-05 23:00:00,3.58
3584,2014-11-06 05:00:00,3.55
3587,2014-11-06 08:00:00,3.46
3590,2014-11-06 13:00:00,2.83
3593,2014-11-06 16:00:00,2.76
3596,2014-11-06 22:00:00,2.88
3599,2014-11-07 03:00:00,2.87
3602,2014-11-07 06:00:00,2.7101
3605,2014-11-07 11:00:00,2.95
3608,2014-11-07 16:00:00,3.21
3611,2014-11-07 19:00:00,3.16
3614,2014-11-08 01:00:00,3.15
3617,2014-11-08 06:00:00,2.89
3620,2014-11-08 09:00:00,2.89
3623,2014-11-08 14:00:00,2.96
3626,2014-11-08 17:00:00,2.97
3629,2015-03-09 16:00:00,2.88
3632,2015-03-09 21:00:00,2.72
3635,2015-03-10 00:00:00,2.92
3638,2015-03-10 05:00:00,3.25
3641,2015-03-10 08:00:00,3.41
3644,2015-03-10 13:00:00,3.55
3647,2015-03-10 19:00:00,3.9
3650,2015-03-10 22:00:00,3.96
3653,2015-03-11 03:00:00,4.05
3656,2015-03-11 08:00:00,4.25
3659,2015-03-11 11:00:00,4.33
3662,2015-03-11 16:00:00,4.24
3665,2015-03-11 19:00:00,4.42
3668,2015-03-12 00:00:00,4.5
3671,2015-03-12 05:00:00,4.05
3674,2015-03-12 08:00:00,4.04
3677,2015-03-12 13:00:00,3.93
3680,2015-03-12 16:00:00,4.08
3683,2015-03-12 22:00:00,3.89
3686,2015-03-13 03:00:00,4.07
3689,2015-03-13 06:00:00,3.94
3692,2015-03-13 11:00:00,4.11
3695,2015-03-13 16:00:00,3.89
3698,2015-03-13 19:00:00,3.88
3701,2015-03-14 00:00:00,3.72
3704,2015-03-14 03:00:00,4.02
3707,2015-03-14 08:00:00,3.77
3710,2015-03-14 14:00:00,3.55
3713,2015-03-14 17:00:00,3.615
3716,2015-03-14 22:00:00,3.5
3719,2015-03-15 03:00:00,3.02
3722,2015-03-15 06:00:00,2.93
3725,2015-03-15 11:00:00,2.81
3728,2015-03-15 14:00:00,2.91
3731,2015-03-15 19:00:00,2.88
3734,2015-03-16 00:00:00,2.83
3737,2015-03-16 03:00:00,2.9
3740,2015-03-16 08:00:00,2.8
3743,2015-03-16 11:00:00,2.63
3746,2015-03-16 16:00:00,2.66
3749,2015-03-16 21:00:00,3.1
3752,2015-03-17 00:00:00,2.74
3755,2015-03-17 06:00:00,2.64
3758,2015-03-17 11:00:00,2.577
3761,2015-03-17 14:00:00,2.81
3764,2015-03-17 19:00:00,2.71
3767,2015-03-17 22:00:00,2.53
3770,2015-03-18 03:00:00,2.55
3773,2015-03-18 08:00:00,2.81
3776,2015-03-18 11:00:00,2.87
3779,2015-03-18 16:00:00,2.76
3782,2015-03-18 19:00:00,2.67
3785,2015-03-19 00:00:00,2.62
3788,2015-03-19 05:00:00,2.56
3791,2015-03-19 08:00:00,2.64
3794,2015-11-02 15:00:00,2.6801
3797,2015-11-02 18:00:00,2.69
3800,2015-11-02 23:00:00,2.49
3803,2015-11-03 04:00:00,1.99
3806,2015-11-03 07:00:00,1.96
3809,2015-11-03 12:00:00,2.0
3812,2015-11-03 18:00:00,1.95
3815,2015-11-03 21:00:00,2.09
3818,2015-11-04 02:00:00,1.7115
3821,2015-11-04 05:00:00,1.64
3824,2015-11-04 10:00:00,1.51
3827,2015-11-04 15:00:00,1.64
3830,2015-11-04 18:00:00,1.7901
3833,2015-11-05 00:00:00,1.7
3836,2015-11-05 06:00:00,1.75
3839,2015-11-05 09:00:00,1.56
3842,2015-11-05 14:00:00,1.23
3845,2015-11-05 20:00:00,1.1
3848,2015-11-05 23:00:00,1.15
3851,2015-11-06 04:00:00,1.24
3854,2015-11-06 09:00:00,1.34
3857,2015-11-06 12:00:00,1.27
3860,2015-11-06 17:00:00,1.18
3863,2015-11-06 20:00:00,1.19
3866,2015-11-07 02:00:00,1.32
3869,2015-11-07 07:00:00,1.3
3872,2015-11-07 10:00:00,1.43
3875,2015-11-07 15:00:00,1.46
3878,2015-11-07 20:00:00,1.68
3881,2015-11-07 23:00:00,1.57
3884,2016-03-14 15:00:00,1.597
3887,2016-03-14 18:00:00,1.6404
3890,2016-03-14 23:00:00,1.64
3893,2016-03-15 05:00:00,1.59
3896,2016-03-15 08:00:00,1.62
3899,2016-03-15 13:00:00,1.63
3902,2016-03-15 18:00:00,1.7
3905,2016-03-15 21:00:00,1.75
3908,2016-03-16 02:00:00,1.81
3911,2016-03-16 05:00:00,1.88
3914,2016-03-16 10:00:00,1.95
3917,2016-03-16 15:00:00,1.89
3920,2016-03-16 18:00:00,1.835
3923,2016-03-16 23:00:00,1.8555
3926,2016-03-17 02:00:00,1.92
3929,2016-03-17 07:00:00,1.8
3932,2016-03-17 12:00:00,1.7
3935,2016-03-17 15:00:00,1.74
3938,2016-03-17 21:00:00,1.64
3941,2016-03-18 02:00:00,1.7
3944,2016-03-18 05:00:00,1.77
3947,2016-03-18 10:00:00,1.65
3950,2016-03-18 13:00:00,1.62
3953,2016-03-18 18:00:00,1.72
3956,2016-03-18 23:00:00,1.65
3959,2016-03-19 02:00:00,1.75
3962,2016-03-19 08:00:00,1.7
3965,2016-03-19 13:00:00,1.69
3968,2016-03-19 16:00:00,1.75
3971,2016-03-19 21:00:00,1.73
3974,2016-03-20 00:00:00,1.7
3977,2016-03-20 05:00:00,1.6
3980,2016-03-20 10:00:00,1.6101
3983,2016-03-20 13:00:00,1.55
3986,2016-03-20 18:00:00,1.59
3989,2016-03-20 21:00:00,1.87
3992,2016-03-21 02:00:00,1.91
3995,2016-03-21 07:00:00,1.865
3998,2016-03-21 10:00:00,1.88
4001,2016-03-21 15:00:00,1.81
4004,2016-03-21 18:00:00,1.87
4007,2016-03-22 00:00:00,1.96
4010,2016-03-22 05:00:00,1.92
4013,2016-03-22 08:00:00,1.88
4016,2016-03-22 13:00:00,1.95
4019,2016-03-22 18:00:00,1.85
4022,2016-03-22 21:00:00,1.93
4025,2016-03-23 02:00:00,1.96
4028,2016-03-23 05:00:00,2.02
4031,2016-03-23 10:00:00,2.05
4034,2016-03-23 15:00:00,2.06
4037,2016-03-23 18:00:00,2.04
4040,2016-03-23 23:00:00,1.85
4043,2016-03-24 02:00:00,1.83
4046,2016-03-24 07:00:00,1.76
4049,2016-11-07 14:00:00,1.781
4052,2016-11-07 17:00:00,1.78
4055,2016-11-07 22:00:00,1.79
4058,2016-11-08 01:00:00,1.72
4061,2016-11-08 06:00:00,1.7262
4064,2016-11-28 15:00:00,1.68
4067,2016-11-28 18:00:00,1.84
4070,2016-11-28 23:00:00,1.6715
4073,2016-11-29 04:00:00,1.76
4076,2016-11-29 07:00:00,1.63
4079,2016-11-29 12:00:00,1.65
4082,2016-11-29 15:00:00,1.6501
4085,2016-11-29 21:00:00,1.68
4088,2016-11-30 03:00:00,1.79
4091,2016-11-30 08:00:00,1.73
4094,2016-11-30 11:00:00,1.76
4097,2016-11-30 17:00:00,1.72
4100,2016-11-30 22:00:00,1.7
4103,2016-12-01 01:00:00,1.74
4106,2016-12-01 06:00:00,1.6599
4109,2016-12-01 09:00:00,1.72
4112,2016-12-01 14:00:00,1.65
4115,2016-12-01 19:00:00,1.69
4118,2016-12-01 22:00:00,1.73
4121,2016-12-02 04:00:00,1.7
4124,2016-12-02 09:00:00,1.64
4127,2016-12-02 12:00:00,1.63
4130,2016-12-02 17:00:00,1.58
4133,2016-12-02 20:00:00,1.59
4136,2017-03-13 16:00:00,1.5
4139,2017-03-13 21:00:00,1.485
4142,2017-03-14 00:00:00,1.47
4145,2017-03-14 05:00:00,1.49
4148,2017-03-14 08:00:00,1.56
4151,2017-03-14 13:00:00,1.56
4154,2017-03-14 18:00:00,1.6
4157,2017-03-14 21:00:00,1.57
4160,2017-03-15 03:00:00,1.5
4163,2017-03-15 08:00:00,1.49
4166,2017-03-15 11:00:00,1.46
4169,2017-03-15 16:00:00,1.45
4172,2017-03-15 19:00:00,1.37
4175,2017-03-16 00:00:00,1.43
4178,2017-03-16 05:00:00,1.5
4181,2017-03-16 08:00:00,1.53
4184,2017-03-16 13:00:00,1.51
4187,2017-03-16 16:00:00,1.48
4190,2017-03-16 22:00:00,1.45
4193,2017-03-17 03:00:00,1.38
4196,2017-03-17 06:00:00,1.35
4199,2017-03-17 11:00:00,1.24
4202,2017-03-17 16:00:00,1.28
4205,2017-03-17 19:00:00,1.25
4208,2017-03-18 00:00:00,1.27
4211,2017-03-18 03:00:00,1.29
4214,2017-07-05 15:00:00,1.305
4217,2017-07-05 20:00:00,1.26
4220,2017-07-05 23:00:00,1.32
4223,2017-07-06 04:00:00,1.35
4226,2017-07-06 09:00:00,1.35
4229,2017-07-06 12:00:00,1.33
4232,2017-07-06 17:00:00,1.33
4235,2017-07-06 20:00:00,1.27
4238,2017-07-07 01:00:00,1.24
4241,2017-07-07 06:00:00,1.16
4244,2017-07-07 09:00:00,1.2
4247,2017-07-07 14:00:00,1.17
4250,2017-07-07 17:00:00,1.21
4253,2017-07-07 22:00:00,1.25
4256,2017-07-08 04:00:00,1.28
4259,2017-07-08 07:00:00,1.25
4262,2017-07-08 12:00:00,1.12
4265,2017-07-08 17:00:00,1.09
4268,2017-07-08 20:00:00,1.15
4271,2017-07-09 01:00:00,1.27
4274,2017-07-09 04:00:00,1.38